Sample	Spectrum	Background	Delta										Helium			Argon	
0	1411.501	182	1229.501										396.473	20		392.572	35
1	1561.995	182	1379.995										400.927	1		392.862	50
2	1226.51	182	1044.51										402.619	50		393.255	25
3	1405.495	182	1223.495										402.636	5		394.61	70
4	1258.005	182	1076.005										412.082	12		394.751	7
5	1379.496	182	1197.496										412.099	2		394.898	35
6	1522.496	182	1340.496										414.376	3		397.936	20
7	1404.004	182	1222.004										438.793	10		399.479	35
8	1365.001	182	1183.001										443.755	3		401.386	50
9	1355	182	1173										447.148	200		403.381	50
10	1352	182	1170										447.168	25		403.546	20
11	1274.002	182	1092.002										468.54	6		404.289	150
12	1224.001	182	1042.001										468.57	30		404.442	50
13	1267.498	182	1085.498										471.315	30		405.292	100
14	1326.998	182	1144.998										471.338	4		407.201	200
15	1272.001	182	1090.001										492.193	20		407.239	70
16	1251.501	182	1069.501										501.568	100		407.663	25
17	1241	182	1059										504.774	10		407.957	35
18	1217.5	182	1035.5										541.152	5		408.239	25
19	1396.994	182	1214.994										587.562	500		410.391	150
20	1299.503	182	1117.503										587.597	100		413.172	300
21	1305	182	1123										656.01	8		415.609	35
22	1271.001	182	1089.001										667.815	100		415.859	400
23	1191.003	182	1009.003										686.748	3		416.418	50
24	1383.494	182	1201.494										706.519	200		417.93	35
25	1253.504	182	1071.504										706.571	30		418.188	50
26	1276.5	182	1094.5													419.071	100
27	1284	182	1102													419.103	50
28	1339.498	182	1157.498													419.832	200
29	1453.997	182	1271.997													420.067	400
30	1181.509	182	999.509													421.867	25
31	1034.005	182	852.005													422.264	25
32	1235.994	182	1053.994													422.699	25
33	1197.501	182	1015.501													422.816	100
34	1250.998	182	1068.998													423.722	100
35	1166.502	182	984.502													425.119	25
36	1380.493	182	1198.493													425.936	200
37	1238.004	182	1056.004													426.629	100
38	1074.005	182	892.005													426.653	70
39	1232.995	182	1050.995													427.217	150
40	1309.998	182	1127.998													427.753	550
41	1234.002	182	1052.002													428.29	20
42	1164.502	182	982.502													430.01	100
43	1139.501	182	957.501													430.065	25
44	1175.499	182	993.499													430.924	70
45	1160.001	182	978.001													433.12	200
46	1347.994	182	1165.994													433.203	50
47	1150.006	182	968.006													433.356	100
48	1181.499	182	999.499													433.534	50
49	1207.999	182	1025.999													434.517	25
50	1237.499	182	1055.499													434.806	800
51	1126.503	182	944.503													435.221	50
52	1099.001	182	917.001													436.207	25
53	1082	182	900													436.783	50
54	1393.491	182	1211.491													437.075	200
55	1062.51	182	880.51													437.133	70
56	1214.495	182	1032.495													437.595	50
57	1141.002	182	959.002													437.967	150
58	1157.999	182	975.999													438.506	50
59	1259.996	182	1077.996													440.01	70
60	1226.501	182	1044.501													440.099	200
61	1132.503	182	950.503													442.6	400
62	1143	182	961													443.019	150
63	1210.498	182	1028.498													443.1	50
64	1237.499	182	1055.499													443.384	50
65	1233	182	1051													443.946	20
66	1386.495	182	1204.495													444.888	35
67	1162.007	182	980.007													447.476	100
68	1198.999	182	1016.999													448.181	200
69	1213.5	182	1031.5													451.073	100
70	1079.004	182	897.004													452.232	20
71	1285.994	182	1103.994													453.055	20
72	1201.003	182	1019.003													454.505	400
73	1166.501	182	984.501													456.441	20
74	1064.003	182	882.003													457.935	400
75	1134.498	182	952.498													458.99	400
76	1295.995	182	1113.995													459.61	15
77	1267.001	182	1085.001													460.957	550
78	1273.5	182	1091.5													462.844	7
79	1316.999	182	1134.999													463.723	35
80	1403.497	182	1221.497													465.79	400
81	1563.495	182	1381.495													470.232	15
82	1281.508	182	1099.508													472.159	20
83	1311.499	182	1129.499													472.687	550
84	1350.999	182	1168.999													473.205	50
85	1077.008	182	895.008													473.591	300
86	1176.997	182	994.997													476.487	800
87	1138.001	182	956.001													480.602	550
88	1207.498	182	1025.498													484.781	150
89	1214.5	182	1032.5													486.591	50
90	1225.5	182	1043.5													487.986	800
91	1182.001	182	1000.001													488.904	70
92	1265.997	182	1083.997													490.475	20
93	1239.001	182	1057.001													493.321	35
94	1301.498	182	1119.498													496.508	200
95	1139.005	182	957.005													500.933	50
96	1166.999	182	984.999													501.716	70
97	1149.501	182	967.501													506.204	70
98	1239.997	182	1057.997													509.05	20
99	1217.001	182	1035.001													514.178	100
100	1339.996	182	1157.996													514.531	70
101	1192.504	182	1010.504													515.139	5
102	1134.502	182	952.502													516.229	15
103	1225.497	182	1043.497													516.577	25
104	1342.996	182	1160.996													518.775	20
105	1143.006	182	961.006													521.681	20
106	1417.492	182	1235.492													522.127	7
107	1375.501	182	1193.501													542.135	5
108	1337.501	182	1155.501													545.165	10
109	1203.004	182	1021.004													549.587	25
110	1299.497	182	1117.497													550.611	5
111	1204.003	182	1022.003													555.87	25
112	1395.494	182	1213.494													557.254	10
113	1494.497	182	1312.497													560.673	35
114	1238.508	182	1056.508													565.07	20
115	1251.5	182	1069.5													573.952	10
116	1288.999	182	1106.999													583.426	5
117	1302	182	1120													586.031	10
118	1255.001	182	1073.001													588.262	15
119	1495.993	182	1313.993													588.858	25
120	1566.498	182	1384.498													591.209	50
121	1624.498	182	1442.498													592.881	15
122	1557.002	182	1375.002													594.267	5
123	1474.502	182	1292.502													598.73	7
124	1430.002	182	1248.002													599.9	5
125	1452.499	182	1270.499													602.515	5
126	1506.998	182	1324.998													603.213	70
127	1692.994	182	1510.994													604.322	35
128	1763.998	182	1581.998													605.272	10
129	1618.505	182	1436.505													605.937	20
130	1861.493	182	1679.493													609.88	7
131	1636.007	182	1454.007													610.564	10
132	1667.999	182	1485.999													611.492	100
133	1649.501	182	1467.501													614.544	10
134	1639	182	1457													617.017	7
135	1620	182	1438													617.228	150
136	1883.992	182	1701.992													617.31	10
137	2664.476	182	2482.476													621.25	10
138	2909.993	182	2727.993													621.594	5
139	2950.499	182	2768.499													624.312	25
140	2967.999	182	2785.999													629.687	7
141	6526.393	182	6344.393													630.766	15
142	75807.4	182	75625.4													636.958	7
143	178777.4	182	178595.4													638.472	20
144	188813.2	182	188631.2													641.631	70
145	182243.1	182	182061.1													648.308	25
146	95973.62	182	95791.62													653.811	15
147	9765.132	182	9583.132													660.485	15
148	4088.173	182	3906.173													663.822	25
149	6924.915	182	6742.915													663.974	20
150	7561.482	182	7379.482													664.37	50
151	7371.007	182	7189.007													666.068	5
152	6103.539	182	5921.539													666.405	5
153	5719.012	182	5537.012													666.636	25
154	11881.31	182	11699.31													667.728	100
155	13188.96	182	13006.96													668.429	35
156	12987.5	182	12805.5													675.283	150
157	9174.115	182	8992.115													675.616	5
158	3357.178	182	3175.178													676.661	15
159	2505.026	182	2323.026													686.127	20
160	2478.001	182	2296.001													687.129	150
161	3140.98	182	2958.98													687.958	5
162	3724.982	182	3542.982													688.817	10
163	4134.487	182	3952.487													693.766	50
164	4605.485	182	4423.485													695.148	7
165	4652.499	182	4470.499													696.025	7
166	4144.016	182	3962.016													696.543	9999
167	4464.99	182	4282.99													703.025	150
168	4681.493	182	4499.493													706.722	9999
169	4411.009	182	4229.009													706.874	100
170	4157.008	182	3975.008													710.748	25
171	3391.523	182	3209.523													712.582	25
172	2855.017	182	2673.017													714.704	1000
173	3085.993	182	2903.993													715.884	15
174	3399.491	182	3217.491													0	0
175	3446.998	182	3264.998													800	0
176	3407.002	182	3225.002														
177	2915.515	182	2733.515														
178	3015.497	182	2833.497														
179	3298.491	182	3116.491														
180	3063.007	182	2881.007														
181	3109.998	182	2927.998														
182	4607.454	182	4425.454														
183	7213.922	182	7031.922														
184	7533.491	182	7351.491														
185	7914.99	182	7732.99														
186	6474.045	182	6292.045														
187	5400.033	182	5218.033														
188	21148.52	182	20966.52														
189	117438.6	182	117256.6														
190	153452.4	182	153270.4														
191	154658.5	182	154476.5														
192	131851.7	182	131669.7														
193	30863.58	182	30681.58														
194	5802.765	182	5620.765														
195	3835.561	182	3653.561														
196	3854	182	3672														
197	3585.508	182	3403.508														
198	3680.497	182	3498.497														
199	3331.511	182	3149.511														
200	3570.493	182	3388.493														
201	3543.501	182	3361.501														
202	4008.986	182	3826.986														
203	4696.979	182	4514.979														
204	5071.488	182	4889.488														
205	5024.002	182	4842.002														
206	4932.503	182	4750.503														
207	8202.899	182	8020.899														
208	20736.12	182	20554.12														
209	23370.92	182	23188.92														
210	23645.99	182	23463.99														
211	17808.68	182	17626.68														
212	5435.378	182	5253.378														
213	3555.557	182	3373.557														
214	3473.002	182	3291.002														
215	3460	182	3278														
216	3441.5	182	3259.5														
217	3443	182	3261														
218	3473.499	182	3291.499														
219	3597.497	182	3415.497														
220	3502.503	182	3320.503														
221	3702.493	182	3520.493														
222	3878.494	182	3696.494														
223	11063.28	182	10881.28														
224	40699.59	182	40517.59														
225	47886.77	182	47704.77														
226	48164.5	182	47982.5														
227	37912.31	182	37730.31														
228	8924	182	8742														
229	4531.5	182	4349.5														
230	20621	182	20439														
231	130148.5	182	129966.5														
232	171952	182	171770														
233	173852.5	182	173670.5														
234	151331.5	182	151149.5														
235	37293.5	182	37111.5														
236	9394	182	9212														
237	6165	182	5983														
238	4448	182	4266														
239	4157.5	182	3975.5														
240	4263	182	4081														
241	4077	182	3895														
242	4215	182	4033														
243	4147.5	182	3965.5														
244	4325	182	4143														
245	4226.5	182	4044.5														
246	4500.5	182	4318.5														
247	4184	182	4002														
248	4349.5	182	4167.5														
249	4321.5	182	4139.5														
250	4440	182	4258														
251	4430.5	182	4248.5														
252	4535	182	4353														
253	4606	182	4424														
254	4647.5	182	4465.5														
255	4700.5	182	4518.5														
256	4791.5	182	4609.5														
257	4924.5	182	4742.5														
258	4826.5	182	4644.5														
259	4945	182	4763														
260	5074	182	4892														
261	5096	182	4914														
262	5148.5	182	4966.5														
263	5305	182	5123														
264	5400	182	5218														
265	5414	182	5232														
266	5453.5	182	5271.5														
267	5647.5	182	5465.5														
268	5651	182	5469														
269	5920.5	182	5738.5														
270	6118	182	5936														
271	6266	182	6084														
272	6240	182	6058														
273	6483	182	6301														
274	6601.5	182	6419.5														
275	6414	182	6232														
276	6507.5	182	6325.5														
277	6856.5	182	6674.5														
278	6721	182	6539														
279	7107	182	6925														
280	7376.5	182	7194.5														
281	7062.5	182	6880.5														
282	7297	182	7115														
283	7328	182	7146														
284	8023.5	182	7841.5														
285	8933	182	8751														
286	9290.5	182	9108.5														
287	9574	182	9392														
288	9483	182	9301														
289	9160	182	8978														
290	9377	182	9195														
291	9517.5	182	9335.5														
292	9861.5	182	9679.5														
293	10215.5	182	10033.5														
294	20527.5	182	20345.5														
295	340337	182	340155														
296	2125241	182	2125059														
297	2600701	182	2600519														
298	2599948	182	2599766														
299	2082656	182	2082474														
300	330094.5	182	329912.5														
301	26583	182	26401														
302	13654.5	182	13472.5														
303	13031.5	182	12849.5														
304	12130.5	182	11948.5														
305	11762	182	11580														
306	11276	182	11094														
307	10795.5	182	10613.5														
308	10786.5	182	10604.5														
309	10871	182	10689														
310	10803	182	10621														
311	10843	182	10661														
312	10637	182	10455														
313	10597	182	10415														
314	10606.5	182	10424.5														
315	10506	182	10324														
316	10679	182	10497														
317	10566	182	10384														
318	10911	182	10729														
319	10710	182	10528														
320	10556.5	182	10374.5														
321	10858.5	182	10676.5														
322	11019.5	182	10837.5														
323	10957.5	182	10775.5														
324	11279	182	11097														
325	11215	182	11033														
326	11291	182	11109														
327	11377.5	182	11195.5														
328	11445	182	11263														
329	11753	182	11571														
330	11976	182	11794														
331	11995	182	11813														
332	12020.5	182	11838.5														
333	12170.5	182	11988.5														
334	12532	182	12350														
335	13037	182	12855														
336	13431	182	13249														
337	13878.5	182	13696.5														
338	14150	182	13968														
339	13708	182	13526														
340	13374.5	182	13192.5														
341	13399.5	182	13217.5														
342	13734.5	182	13552.5														
343	13623.5	182	13441.5														
344	13883	182	13701														
345	14062	182	13880														
346	14040.5	182	13858.5														
347	14229.5	182	14047.5														
348	14368.5	182	14186.5														
349	14507	182	14325														
350	14876	182	14694														
351	15008.5	182	14826.5														
352	15478.5	182	15296.5														
353	16426	182	16244														
354	25480	182	25298														
355	277983	182	277801														
356	792660	182	792478														
357	831406.5	182	831224.5														
358	815743	182	815561														
359	468770.5	182	468588.5														
360	47206	182	47024														
361	19165	182	18983														
362	18012	182	17830														
363	18016	182	17834														
364	17996.5	182	17814.5														
365	17514.5	182	17332.5														
366	17716.5	182	17534.5														
367	17926	182	17744														
368	17858.5	182	17676.5														
369	18325.5	182	18143.5														
370	19060	182	18878														
371	19371	182	19189														
372	19582.5	182	19400.5														
373	19861.5	182	19679.5														
374	19644.5	182	19462.5														
375	20266.5	182	20084.5														
376	32894	182	32712														
377	89400	182	89218														
378	98635	182	98453														
379	98074.5	182	97892.5														
380	78101	182	77919														
381	27686.5	182	27504.5														
382	23635.5	182	23453.5														
383	52957.5	182	52775.5														
384	484113.5	182	483931.5														
385	724783	182	724601														
386	732493	182	732311														
387	679480	182	679298														
388	193320.5	182	193138.5														
389	31301	182	31119														
390	29038	182	28856														
391	30923	182	30741														
392	30734	182	30552														
393	30533	182	30351														
394	27224	182	27042														
395	25704	182	25522														
396	26304	182	26122														
397	26375.5	182	26193.5														
398	26808	182	26626														
399	39776	182	39594														
400	109505.5	182	109323.5														
401	135485	182	135303														
402	135415.5	182	135233.5														
403	116840.5	182	116658.5														
404	45523.5	182	45341.5														
405	30008	182	29826														
406	30529	182	30347														
407	51197.5	182	51015.5														
408	108386	182	108204														
409	112190	182	112008														
410	111455.5	182	111273.5														
411	81234.5	182	81052.5														
412	35170.5	182	34988.5														
413	32275	182	32093														
414	32287.5	182	32105.5														
415	34358	182	34176														
416	70904	182	70722														
417	171605	182	171423														
418	211370	182	211188														
419	211019.5	182	210837.5														
420	160653	182	160471														
421	63544	182	63362														
422	39654	182	39472														
423	46336.5	182	46154.5														
424	48788	182	48606														
425	67110.5	182	66928.5														
426	322955	182	322773														
427	438268	182	438086														
428	438062	182	437880														
429	406780.5	182	406598.5														
430	114472.5	182	114290.5														
431	41096	182	40914														
432	70791	182	70609														
433	166569	182	166387														
434	174567	182	174385														
435	174082	182	173900														
436	124466	182	124284														
437	44405.5	182	44223.5														
438	38888	182	38706														
439	39098	182	38916														
440	39033	182	38851														
441	38798	182	38616														
442	39444	182	39262														
443	39145.5	182	38963.5														
444	39994	182	39812														
445	39767	182	39585														
446	39740.5	182	39558.5														
447	40512.5	182	40330.5														
448	45144.5	182	44962.5														
449	121329.5	182	121147.5														
450	159033	182	158851														
451	157958	182	157776														
452	152807.5	182	152625.5														
453	99935.5	182	99753.5														
454	186766.5	182	186584.5														
455	211940	182	211758														
456	208979.5	182	208797.5														
457	159084	182	158902														
458	55708	182	55526														
459	43258.5	182	43076.5														
460	91934.5	182	91752.5														
461	319460	182	319278														
462	497103	182	496921														
463	500981	182	500799														
464	432149.5	182	431967.5														
465	175839	182	175657														
466	48348.5	182	48166.5														
467	41908	182	41726														
468	41392	182	41210														
469	42037.5	182	41855.5														
470	41256.5	182	41074.5														
471	43864	182	43682														
472	94530	182	94348														
473	143873.5	182	143691.5														
474	145070	182	144888														
475	142138.5	182	141956.5														
476	76910.5	182	76728.5														
477	43352	182	43170														
478	42793.5	182	42611.5														
479	41648.5	182	41466.5														
480	41939.5	182	41757.5														
481	42896.5	182	42714.5														
482	55851.5	182	55669.5														
483	150281.5	182	150099.5														
484	291040.5	182	290858.5														
485	344035.5	182	343853.5														
486	318181.5	182	317999.5														
487	222651	182	222469														
488	71697.5	182	71515.5														
489	43631	182	43449														
490	44986.5	182	44804.5														
491	78601.5	182	78419.5														
492	100463.5	182	100281.5														
493	101252.5	182	101070.5														
494	96811	182	96629														
495	54417	182	54235														
496	42745	182	42563														
497	41829.5	182	41647.5														
498	41438	182	41256														
499	42180.5	182	41998.5														
500	42071.5	182	41889.5														
501	42337.5	182	42155.5														
502	49875	182	49693														
503	51762.5	182	51580.5														
504	50719	182	50537														
505	49564	182	49382														
506	42450	182	42268														
507	40893	182	40711														
508	40983.5	182	40801.5														
509	41680	182	41498														
510	41245	182	41063														
511	40767.5	182	40585.5														
512	41271	182	41089														
513	40917	182	40735														
514	40402.5	182	40220.5														
515	40428	182	40246														
516	40419	182	40237														
517	40091	182	39909														
518	39751	182	39569														
519	40261.5	182	40079.5														
520	39748.5	182	39566.5														
521	38862.5	182	38680.5														
522	39165	182	38983														
523	39299	182	39117														
524	38727	182	38545														
525	38699.5	182	38517.5														
526	38730	182	38548														
527	38753.5	182	38571.5														
528	38135	182	37953														
529	38335.5	182	38153.5														
530	37824.01	182	37642.01														
531	37346.51	182	37164.51														
532	37837.49	182	37655.49														
533	38253	182	38071														
534	45893	182	45711														
535	135325.9	182	135143.9														
536	205295	182	205113														
537	209395.5	182	209213.5														
538	199532	182	199350														
539	86849.99	182	86667.99														
540	41686.51	182	41504.51														
541	38019	182	37837														
542	45251.98	182	45069.98														
543	64611.99	182	64429.99														
544	69276.99	182	69094.99														
545	68376.99	182	68194.99														
546	56140.99	182	55958.99														
547	37510	182	37328														
548	34910.51	182	34728.51														
549	34269.5	182	34087.5														
550	33757	182	33575														
551	33250.51	182	33068.51														
552	33690	182	33508														
553	34258	182	34076														
554	34087	182	33905														
555	33855.5	182	33673.5														
556	31999.99	182	31817.99														
557	31205.5	182	31023.5														
558	31042.99	182	30860.99														
559	30185.01	182	30003.01														
560	29632.5	182	29450.5														
561	29664.98	182	29482.98														
562	29365.5	182	29183.5														
563	28918	182	28736														
564	28297.49	182	28115.49														
565	28346.49	182	28164.49														
566	28151.5	182	27969.5														
567	27797	182	27615														
568	27468.5	182	27286.5														
569	27272	182	27090														
570	26884.5	182	26702.5														
571	26720	182	26538														
572	26278.01	182	26096.01														
573	27391.01	182	27209.01														
574	38224	182	38042														
575	51413	182	51231														
576	54575.02	182	54393.02														
577	53170.99	182	52988.99														
578	37250	182	37068														
579	26381.51	182	26199.51														
580	24377	182	24195														
581	23548.99	182	23366.99														
582	22892	182	22710														
583	22799	182	22617														
584	24412	182	24230														
585	24674.5	182	24492.5														
586	23817	182	23635														
587	22144	182	21962														
588	20400.5	182	20218.5														
589	19345.5	182	19163.5														
590	19186.5	182	19004.5														
591	18552	182	18370														
592	18754.5	182	18572.5														
593	19036.5	182	18854.5														
594	18830	182	18648														
595	18408	182	18226														
596	17308	182	17126														
597	16128.01	182	15946.01														
598	15584	182	15402														
599	14884	182	14702														
600	14491.5	182	14309.5														
601	14338	182	14156														
602	13986.5	182	13804.5														
603	13329	182	13147														
604	13222.5	182	13040.5														
605	12486.5	182	12304.5														
606	12358.5	182	12176.5														
607	11808	182	11626														
608	10979.5	182	10797.5														
609	10792	182	10610														
610	10417	182	10235														
611	9950.999	182	9768.999														
612	9569.997	182	9387.997														
613	9502.002	182	9320.002														
614	10661	182	10479														
615	10724	182	10542														
616	10338	182	10156														
617	9422.495	182	9240.495														
618	7889.002	182	7707.002														
619	7216.997	182	7034.997														
620	6826.5	182	6644.5														
621	6286.999	182	6104.999														
622	5969	182	5787														
623	5789.996	182	5607.996														
624	5508	182	5326														
625	5279.999	182	5097.999														
626	4788.501	182	4606.501														
627	4618.504	182	4436.504														
628	4478.5	182	4296.5														
629	4351.5	182	4169.5														
630	4221.5	182	4039.5														
631	3950.499	182	3768.499														
632	3885.5	182	3703.5														
633	3993.499	182	3811.499														
634	3940.501	182	3758.501														
635	3751.5	182	3569.5														
636	3715.5	182	3533.5														
637	3801.499	182	3619.499														
638	3570	182	3388														
639	3268.501	182	3086.501														
640	3336.5	182	3154.5														
641	3094.499	182	2912.499														
642	3277.996	182	3095.996														
643	3084.002	182	2902.002														
644	2934.003	182	2752.003														
645	3230.997	182	3048.997														
646	3013	182	2831														
647	2999.496	182	2817.496														
648	2869.5	182	2687.5														
649	3109.495	182	2927.495														
650	2879.498	182	2697.498														
651	2932.001	182	2750.001														
652	2848.501	182	2666.501														
653	2846.5	182	2664.5														
654	3067.503	182	2885.503														
655	3040.999	182	2858.999														
656	3204.996	182	3022.996														
657	3329.503	182	3147.503														
658	3515.499	182	3333.499														
659	5420.494	182	5238.494														
660	13019	182	12837														
661	19702.49	182	19520.49														
662	22954.98	182	22772.98														
663	20761.99	182	20579.99														
664	12910.5	182	12728.5														
665	7131.002	182	6949.002														
666	4881.999	182	4699.999														
667	4275.498	182	4093.498														
668	3619.501	182	3437.501														
669	3111.501	182	2929.501														
670	2881.997	182	2699.997														
671	2537.5	182	2355.5														
672	2498.997	182	2316.997														
673	2429	182	2247														
674	2185.502	182	2003.502														
675	2104.497	182	1922.497														
676	2123.004	182	1941.004														
677	1851.002	182	1669.002														
678	1707.998	182	1525.998														
679	1762.5	182	1580.5														
680	1721.999	182	1539.999														
681	1779	182	1597														
682	1750.499	182	1568.499														
683	1680.499	182	1498.499														
684	1455.501	182	1273.501														
685	1599.003	182	1417.003														
686	1518	182	1336														
687	1586.002	182	1404.002														
688	1478.001	182	1296.001														
689	1464.998	182	1282.998														
690	1398.998	182	1216.998														
691	1520.998	182	1338.998														
692	1459.499	182	1277.499														
693	1588.496	182	1406.496														
694	1470	182	1288														
695	1306	182	1124														
696	1453.001	182	1271.001														
697	1283.998	182	1101.998														
698	1347.999	182	1165.999														
699	1323.499	182	1141.499														
700	1310.997	182	1128.997														
701	1227.5	182	1045.5														
702	1305	182	1123														
703	2224.501	182	2042.501														
704	4298	182	4116														
705	5558.005	182	5376.005														
706	6178.995	182	5996.995														
707	4805	182	4623														
708	2934.004	182	2752.004														
709	1698.005	182	1516.005														
710	997.501	182	815.501														
711	1175.5	182	993.5														
712	1145.498	182	963.498														
713	1078	182	896														
714	1061.999	182	879.999														
715	984	182	802														
716	1038.001	182	856.001														
717	1106.004	182	924.004														
718	1549.501	182	1367.501														
719	10234	182	10052														
720	50887.98	182	50705.98														
721	85623.98	182	85441.98														
722	99846.49	182	99664.49														
723	91245.01	182	91063.01														
724	46852.99	182	46670.99														
725	13539.5	182	13357.5														
726	3401.001	182	3219.001														
727	1468.997	182	1286.997														
728	1190	182	1008														
729	1149.502	182	967.502														
730	920.0046	182	738.0046														
731	931.5	182	749.5														
732	824.4993	182	642.4993														
733	890.9999	182	708.9999														
734	945.9966	182	763.9966														
735	1140.505	182	958.505														
736	1049.002	182	867.002														
737	1090.498	182	908.498														
738	921.4972	182	739.4972														
739	542.0002	182	360.0002														
740	178.9996	182	-3.0004														
